n07937069_47 http://s2.thisnext.com/media/230x230/Vichy-Catalan-Bottled-Water_341E39A0.jpg
n07937069_56 http://ecx.images-amazon.com/images/I/21qSbB5h6xL._SL500_SS90_.jpg
n07937069_194 http://ec1img.pchome.com.tw/drink1/img/DRI00128l.jpg
n07937069_338 http://sls.114chn.com/tradepic/220283/2202830912070001/upload/product/s0912110021.gif
n07937069_365 http://www.enveloop.com/wp-content/uploads/2008/09/st-yorre-vichy-la-force-minerale-15-lt.jpg
n07937069_370 http://farm4.static.flickr.com/3291/2475728991_d0d82a8abe.jpg
n07937069_415 http://www.aquaamore.com/images/products/01143.jpg
n07937069_463 http://ecx.images-amazon.com/images/I/21qSbB5h6xL._SL160_.jpg
n07937069_500 http://www.drankenvandekerckhove.be/images/water1.jpg
n07937069_501 http://img.21food.cn/thumb/userimages/xianchi/xianchi$82812340.jpg
n07937069_520 http://images.bizrate.com/resize?sq=100&amp;uid;=922853868
n07937069_674 http://pic.58.com/Images/postimg08/big/2009-09-28/F09520546635830.jpg
n07937069_753 http://www.aquaamore.com/images/products/01243.jpg
n07937069_779 http://www.aquaamore.com/images/products/01028.jpg
n07937069_781 http://images.bizrate.com/resize?sq=100&amp;uid;=1249437945
n07937069_782 http://i00.c.aliimg.com/img/offer/14/05/41/19/5/140541195
n07937069_785 http://jiushui.net/picture/hrhchina/56451200833162939.jpg
n07937069_803 http://www.aquaamore.com/images/products/01255.jpg
n07937069_824 http://www.aquamaestro.com/productsnew/Vichy.jpg
n07937069_839 http://i3.sinaimg.cn/lx/cr/2008/0710/3745437984.jpg
n07937069_860 http://image.ecplaza.net/offer/z/zbrdl/955765_s.jpg
n07937069_954 http://img1.31food.com/2/2008/2007314103155912.jpg
n07937069_988 http://farm4.static.flickr.com/3168/2722239140_fee461d252.jpg
n07937069_993 http://www30.tok2.com/home/mickey/water/scotch.jpg
n07937069_1038 http://www.261000.net/UpFile/Class/200907/0907220634113411.jpg
n07937069_1139 http://images.net114.com/importimg/20090318/397/pic/s_0_397_5193436_pic_1.jpg
n07937069_1141 http://img1.qq.com/lady/pics/9804/9804066.jpg
n07937069_1293 http://chinawdlc.b2b.trade160.com/pic/picture/2008123131021693.jpg
n07937069_1326 http://i02.c.aliimg.com/img/offer/44/95/75/15/7/449575157
n07937069_1336 http://photo.southcn.com/bbs/F953912006.12.17.18.38.4310.jpg
n07937069_1411 http://a1.att.hudong.com/81/02/01300000280411125389024750560_s.jpg
n07937069_1412 http://www.aquaamore.com/images/01051.jpg
n07937069_1423 http://dardel.info/images/cristaline_bout.jpg
n07937069_1431 http://farm4.static.flickr.com/3420/3382780680_48581894c8.jpg
n07937069_1480 http://www.springwatershop.com/WebRoot/Store/Shops/080520/4856/3ED6/DF25/941E/A985/5360/9702/08F8/san_pellegrino_0,75.jpg
n07937069_1501 http://www.thedieline.com/.a/6a00d8345250f069e20120a64d2a38970b-550wi
n07937069_1806 http://www.water-factory.com/images/item/707-1.jpg
n07937069_1834 http://i1.sinaimg.cn/lx/cr/2008/0710/1958056914.jpg
n07937069_2007 http://3.bp.blogspot.com/_qaCFuWu6-Cw/SulP-xFA5oI/AAAAAAAAF64/DaNPDoxvyu8/s320/vichy1.jpg
n07937069_2039 http://i04.c.aliimg.com/img/offer/44/95/63/56/7/449563567
n07937069_2041 http://i04.c.aliimg.com/img/offer/21/22/58/77/6/212258776
n07937069_2132 http://www.thenibble.com/reviews/main/beverages/waters/images/vichy-catalan-water.jpg
n07937069_2143 http://www30.tok2.com/home/mickey/water/vichycatalan.jpg
n07937069_2190 http://drvino.com/wp-content/uploads/2007/05/bottleh2o.jpg
n07937069_2233 http://www.aquaamore.com/images/products/01139.jpg
n07937069_2246 http://nogoodforme.filmstills.org/img10021640066.jpeg
n07937069_2270 http://image.ecplaza.net/offer/z/zbrdl/950831_m.jpg
n07937069_2287 http://www.aquaamore.com/images/products/01363.jpg
n07937069_2319 http://i3.sinaimg.cn/lx/cr/2008/0710/1899748862.jpg
n07937069_2333 http://farm2.static.flickr.com/1227/850679838_93a6275433.jpg
n07937069_2435 http://www.aquaamore.com/images/01041.jpg
n07937069_2439 http://img.21food.cn/thumb/userimages/xiyachina/xiyachina$112214542.jpg
n07937069_2456 http://www30.tok2.com/home/mickey/water/vichy.jpg
n07937069_2472 http://www.polarbev.com/Portals/0/products/prod_mixers.jpg
n07937069_2554 http://images.net114.com/importimg/20090505/397/pic/0_397_9867433_pic_1.jpg
n07937069_2624 http://farm4.static.flickr.com/3149/2725954173_3823f92390.jpg
n07937069_2636 http://water.sp-goods.com/img/vichy_entry.jpg
n07937069_2644 http://www.aquadeli.co.nz/images/naleczowianka.jpg
n07937069_2656 http://farm3.static.flickr.com/2193/2279906494_5e12b4b674.jpg
n07937069_2709 http://image.rayli.com.cn/2/2008-05-30/images/200853014127992.jpg
n07937069_2738 http://images.bizrate.com/resize?sq=100&amp;uid;=1567689419
n07937069_2741 http://image.ecplaza.net/offer/z/zbrdl/950831_s.jpg
n07937069_2767 http://farm4.static.flickr.com/3246/3281441977_77dcdf5c08.jpg
n07937069_2898 http://ecx.images-amazon.com/images/I/31sTwf9d6AL._SL110_.jpg
n07937069_2993 http://www.melandrose.com/istarimages/p/t/pt-100058.jpg
n07937069_3009 http://ecx.images-amazon.com/images/I/31sTwf9d6AL._SL500_AA280_.jpg
n07937069_3028 http://www.aquaamore.com/images/01050.jpg
n07937069_3049 http://www.aquaamore.com/images/products/01117.jpg
n07937069_3094 http://www.bericap.com/_user/oldal_images/News/r1.jpg
n07937069_3110 http://farm4.static.flickr.com/3013/3066752255_57f172ac3f.jpg
n07937069_3121 http://img05.taobaocdn.com/bao/uploaded/i5/T18hxaXiVFDcx7WzAx_091909_p.jpg_160x160.jpg
n07937069_3165 http://www.aumarche.com/_ccLib/image/products/thum1-1268.jpg
n07937069_3172 http://www.thewatershoppe.com/media/vichycatalan-lrg.jpg
n07937069_3178 http://img.21food.com/thumb/userimages/acquasantacrocecn/acquasantacrocecn$8815207.jpg
n07937069_3211 http://www.water-factory.com/uliveto/img/img02.jpg
n07937069_3241 http://www.bjhouse.net/Images/Products/B000PY/787O.jpg
n07937069_3251 http://upload.wikimedia.org/wikipedia/en/thumb/0/02/Dasani_water.JPG/250px-Dasani_water.JPG
n07937069_3263 http://pic.58.com/Images/postimg08/big/2009-05-22/F2009052208300998119984.jpg
n07937069_3320 http://dev1.boomersdomain.com/store_oleolefoods_2/images/items/VICHY-COMBObig.jpg
n07937069_3322 http://www.thenibble.com/reviews/main/beverages/waters/images/group_000.jpg
n07937069_3333 http://www.scientificpsychic.com/health/mineral-water.jpg
n07937069_3368 http://www.jsr.org.cn/jsnews/edit/UploadFile/20099215393192.jpg
n07937069_3409 http://img08.taobaocdn.com/bao/uploaded/i8/T1vexjXeRwXXb4Oj.4_053529.jpg_160x160.jpg
n07937069_3619 http://www.aquaamore.com/images/products/01138.jpg
n07937069_3660 http://www.norda-springandmineralwater.com/norda/images/stories/ducale100.png
n07937069_3704 http://www.aquaamore.com/images/01055.jpg
n07937069_3833 http://www.aquaamore.com/images/products/01170.jpg
n07937069_3933 http://www.tcebuy.com/images/goods/20090929/7f71d8929fe29d52.jpg
n07937069_3979 http://3.bp.blogspot.com/_-TjK0eCoQYY/SKRnuSxr19I/AAAAAAAAAHQ/0Rb5hfQB8eA/s400/b_bottle2.png
n07937069_4033 http://bbs.ly.ha.cn/UploadFile/2009-3/200932316553676644.jpg
n07937069_4084 http://image.rakuten.co.jp/lifetech/cabinet/drink/vichy250-100.jpg
n07937069_4085 http://www.export-forum.com/europe/supermarket-supplies/images/612044.jpg
n07937069_4104 http://www.melandrose.com/istarimages/p/t/pt-100030.jpg
n07937069_4123 http://img.b2b.makepolo.com/images/formal/product/product-pic-0/product-0/pic-25/small_23900025.jpg
n07937069_4215 http://farm3.static.flickr.com/2783/4101893456_22e88052a2.jpg
n07937069_4216 http://www.aquamaestro.com/Fountainhead/0507/Vichy4.jpg
n07937069_4231 http://www.aquadeli.co.nz/images/vichyDuo.jpg
n07937069_4243 http://farm1.static.flickr.com/119/303784490_39525ec017.jpg
n07937069_4308 http://claessenscartils.com/images/CrystalClear.jpg
n07937069_4310 http://blog-imgs-24-origin.fc2.com/d/a/y/daydiamond/20090522_01_MineralWaterVichyCelestine02.jpg
n07937069_4312 http://images.net114.com/uploads/product/09/17/s_0917112927321923.jpg
n07937069_4412 http://images.bizrate.com/resize?sq=100&amp;uid;=922852716
n07937069_4462 http://jiushui.net/picture/hrhchina/56451200833162930.jpg
n07937069_4468 http://www.sniw.fr/images/references/612689.jpg
n07937069_4491 http://www30.tok2.com/home/mickey/water/watt.jpg
n07937069_4495 http://www.trendhunter.com/images/phpthumbnails/775_1_230c.jpeg
n07937069_4533 http://image.ecplaza.com/offer/k/kerlogot/2784139_s.jpg
n07937069_4588 http://shop.taihainet.com/images/200904/goods_img/233_G_1240857633068.jpg
n07937069_4613 http://s7d2.scene7.com/is/image/LaTienda/bv-04-2?defaultImage=placeholder_240x240&amp;$reg_1000$
n07937069_4640 http://vichy.icmnetsystems.com/vichy/modules/news/upload/notialbeniz.jpg
n07937069_4675 http://www.aquaamore.com/images/products/01228.jpg
n07937069_4701 http://www.bericap.com/_user/oldal_images/News/group1.jpg
n07937069_4714 http://www.aquaamore.com/images/products/01031.jpg
n07937069_4730 http://www.aquaamore.com/images/products/01204.jpg
n07937069_4845 http://s2.thisnext.com/media/160x160/11E27CFD.jpg
n07937069_4850 http://jiushui.net/picture/hrhchina/56451200833162919.jpg
n07937069_4924 http://www.aquaamore.com/images/products/01242.jpg
n07937069_4931 http://www.africa-trade.ci/europe/approvisionnement-supermarches/supermarket-supplies/images/580001.jpg
n07937069_4961 http://ecx.images-amazon.com/images/I/31-YITlX2eL._SL160_AA160_.jpg
n07937069_4972 https://a248.e.akamai.net/f/248/9086/1.ccd/origin-d2.scene7.com/is/image/LaTienda/bv-03-2?defaultImage=placeholder_125x125&amp;$small_125$
n07937069_5084 http://ecx.images-amazon.com/images/I/31GAPVA3EML._SL500_SS90_.jpg
n07937069_5174 http://farm1.static.flickr.com/105/280074008_1b53c3688d.jpg
n07937069_5229 http://ecx.images-amazon.com/images/I/31sTwf9d6AL._SL160_SL125_.jpg
n07937069_5292 http://www.apci.asso.fr/upload/observateur/b_169.jpg
n07937069_5301 http://www.chinawdlc.com/UploadFile/ProductFile/200775110632955.jpg
n07937069_5304 http://pic.pimg.tw/tiffanyhsu/4ac1dad139347.jpg
n07937069_5313 http://img.article.onlylady.com/00/03/91/11/1019746707_1_big.jpg
