n10332110_20 http://s10.thisnext.com/media/largest_dimension/618879CE.jpg
n10332110_41 http://www.soundsafe.org/content/profile_photos/0000/0081/large/Old_Sugar_Daddy.JPG
n10332110_48 http://www.thefablife.com/files/2010/01/88286845.jpg
n10332110_52 http://media.knoxnews.com/media/img/photos/2007/05/22/0523moss1_e_t160.jpg
n10332110_95 http://cache.daylife.com/imageserve/07rD5QD2Yn28y/340x.jpg
n10332110_107 http://www.eagletribune.com/archive/x842118245/g122000000000000000fd068e8806674efcb3e8aafe3ccb01863db31502.jpg
n10332110_114 http://photos.upi.com/story/t/a209b0fe665aebdea7bbdc077402ebaf/Gold-statue-of-Kate-Moss-worth-3M.jpg
n10332110_121 http://www.nationalpost.com/news/3065513.bin?size=620x465
n10332110_129 http://www.ou.edu/ouphil/faculty/trachtenberg/trachtenberg.jpg
n10332110_141 http://2.bp.blogspot.com/_FmvVm1RxDX4/SbjtM0AIUYI/AAAAAAAAGrM/0VI6hX_VnzY/s400/Dr+John+Yelenic1.jpg
n10332110_150 http://bostonist.com/attachments/boston_caroline/011608-randy-moss.jpg
n10332110_151 http://3.bp.blogspot.com/_FmvVm1RxDX4/SpOVFwwOzDI/AAAAAAAAH1A/bNRCke7HFpQ/s400/nc+trooper+anthony+scott.jpg
n10332110_157 http://www.ericandlucie.com/NE%20Rock/Adirondacks/Main/IMG_3703W.jpg
n10332110_166 http://bp1.blogger.com/_eOXJFllFrOE/R2rXhySiBXI/AAAAAAAAAXg/T0SsBdHTS5E/s400/13+-+Audrey+by+Moss+Wall.jpg
n10332110_181 http://4.bp.blogspot.com/_O462V_wfD30/ReHR0u9Ct9I/AAAAAAAAADU/gWNYbIJuhhs/s400/untitled2.bmp
n10332110_185 http://images.octopop.com/6/45/89/8924589face.jpg
n10332110_193 http://images.mirror.co.uk/upl/m4/sep2008/7/5/2C91AFBF-DA99-0EF6-9471038C77C53484.jpg
n10332110_210 http://www.nationalpost.com/news/canada/349687.bin?size=620x465
n10332110_250 http://media.charlotteobserver.com/smedia/2010/06/21/16/740-ANTHONY_W_MOSS.embedded.prod_affiliate.138.jpg
n10332110_258 http://borderslibdems.org.uk/images/sites/84.234.17.197-45896de7da5537.48673820/static/7.jpeg
n10332110_261 http://www.dollymix.tv/moss.JPG
n10332110_284 http://c4.ac-images.myspacecdn.com/images02/100/s_deb0bd2a6e4c4d708e51475764cd1713.jpg
n10332110_285 http://www.startrip.tv/images/2007/09/26/moss.jpg
n10332110_295 http://i3.ytimg.com/vi/zHVrEvhTmz0/default.jpg
n10332110_298 http://woodenspears.com/wp-content/uploads/2009/05/husband-of-jamie-lynn-spears-injured.jpg
n10332110_318 http://www.osoblog.tv/kate-moss-workwear.jpg
n10332110_321 http://img.youtube.com/vi/SteHtoDqCvw/2.jpg
n10332110_329 http://i.dailymail.co.uk/i/pix/2009/10/10/article-1219361-06C611B2000005DC-22_468x432.jpg
n10332110_332 http://media.idahostatesman.com/smedia/2010/09/20/09/583-255Britain_McQueen_Memorial.sff.standalone.prod_affiliate.36.jpg
n10332110_341 http://1.bp.blogspot.com/_k2_Z5HfoRaM/S7TmJH4a1MI/AAAAAAAACNk/SKWe0owOl3o/s1600/aidoniaone.jpg
n10332110_347 http://blogs.orange.co.uk/.a/6a00d8345192e469e201157042dcab970b-800wi
n10332110_377 http://blogs.stylebible.ph/rajosblog/wp-content/uploads/2009/04/img_3755.jpg
n10332110_401 http://beeradvocate.com/im/users/glid02.jpg
n10332110_402 http://i214.photobucket.com/albums/cc78/sportsbog/IMG_1846.jpg?t=1202077821
n10332110_404 http://lh6.ggpht.com/_CqUJgBa_Dn8/R0BHCQlszaI/AAAAAAAAAUU/UE5wdBF3PCc/AtMossTrooper-Simon.JPG
n10332110_431 http://www.batonrougetoday.com/wp-content/uploads/2010/01/Trooper-Duane-Dalton.jpg
n10332110_438 http://profile.ak.fbcdn.net/profile-ak-snc1/v225/246/64/q1360011174_7379.jpg
n10332110_462 http://imgsrv.wbz.com/image/DbLiteGraphic/200907/4840585.jpg
n10332110_482 http://wpcontent.answers.com/wikipedia/commons/thumb/4/48/Ian_Moss.jpg/220px-Ian_Moss.jpg
n10332110_503 http://allieiswired.com/wp-content/uploads/2010/09/fin-hilarious.jpg
n10332110_504 http://www.massmediahosting.com/ianmoss/wp-content/gallery/ian-moss/ian-moss-2.jpg
n10332110_508 http://dontcostnothing.files.wordpress.com/2007/06/mauresmo.jpg
n10332110_511 http://profile.ak.fbcdn.net/profile5/818/16/q567328542_3342.jpg
n10332110_517 http://www.ianmoss.com.au/wp-content/gallery/ian-on-tour-with-rod-stewart-08/img_1793.jpg
n10332110_520 http://profile.ak.fbcdn.net/profile-ak-ash1/profile6/1987/108/q1212232240_5975.jpg
n10332110_537 http://www.hanne-mugaas.com/artblog/KateMoss_JimS_2821696_600.preview.jpg
n10332110_550 http://i4.ytimg.com/vi/wuudS2J1ygI/default.jpg
n10332110_556 http://media.trb.com/media/alternatethumbnails/story/2010-01/51614867-13081009.JPG
n10332110_558 http://klik.tv/app/webroot/upload/sw2.JPG
n10332110_561 http://www.mosstrooper.com.au/ianmoss/ianmoss.nsf/wp1_lowres.jpg
n10332110_616 http://blackchristiannews.com/news/images/bob-mcdonnell-3021.jpg
n10332110_625 http://wwwimage.cbsnews.com/images/2007/05/23/image2840584g.jpg
n10332110_631 http://encoder1.racingandsports.tv/slave/files/9d8fe59334784652bd640327bf6930bb.mov.jpg
n10332110_642 http://i560.photobucket.com/albums/ss48/uncle-finster/Movies/Little-Bill-Daggett-Unforgiven.gif
n10332110_651 http://www.10thillinoisvolcavalry.com/10th%20Cav%20Pictures/Caleb%20Scott.jpg
n10332110_696 http://theblemish.com/images/2008/07/rose-mcgowan-squat.jpg
n10332110_699 http://www.highsnobiety.com/news/wp-content/uploads/2008/10/nike-sportswear-holiday-2008-apparel-collection-9.jpg
n10332110_712 http://www.suckered.us/images/Randy_Moss.jpg
n10332110_717 http://www.odmp.org/photo.php?id=20230
n10332110_731 http://www.daveolimpiautomobiles.com/images/Laguna09Moss.jpg
n10332110_734 http://profile.ak.fbcdn.net/v224/1368/21/q525120043_121.jpg
n10332110_743 http://lightlybuzzed.com/wp-content/uploads/2010/09/bieber1.jpg
n10332110_747 http://4.music.bigpond-images.com/images/AlbumCoverArt/244/XXL/Lets-All-Get-Together.jpg
n10332110_766 http://www.chinese-starwars.com/roystarkiller/Roystarkiller/gallery/081024252627/1025/carol/019.JPG
n10332110_800 http://www.myfashionlife.com/uploads/2007/04/katemoss_johnnydepp_final.jpg
n10332110_801 http://wwwcache.wral.com/asset/news/local/2010/06/21/7825385/ANTHONY_W_MOSS-220x165.jpg
n10332110_804 http://i.dailymail.co.uk/i/pix/2010/09/22/article-1314099-0B4B68B4000005DC-471_468x346.jpg
n10332110_805 http://www.brookshirestaffords.com/tescos230808latestnews.jpg
n10332110_817 http://www.mandolin.co.uk/images/cdmsi.jpg
n10332110_825 http://lh6.ggpht.com/_CqUJgBa_Dn8/R0BHFQlszgI/AAAAAAAAAVE/w-igGU0GNJQ/AtMossTrooper-John,James,Jane.JPG
n10332110_838 http://towleroad.typepad.com/.a/6a00d8341c730253ef01287728fc46970c-300wi
n10332110_855 http://profile.ak.fbcdn.net/hprofile-ak-snc4/hs346.snc4/41475_586641878_367_q.jpg
n10332110_892 http://makeupbeat.com/blog/wp-content/uploads/2009/03/ult_kireland_01.jpg
n10332110_899 http://www.bbc.co.uk/iplayer/images/episode/b00k2qpr_512_288.jpg
n10332110_903 http://fewbroth.co.uk/images/gallery-thumbs/fran.jpg
n10332110_907 http://www.virtualformguide.com/photos/060510/r6ciaronmaher.jpg
n10332110_912 http://beeradvocate.com/im/users/therica.jpg
n10332110_914 http://img.perezhilton.com/wp-content/uploads/2008/10/palin2__opt.jpg
n10332110_968 http://fewbroth.co.uk/images/gallery-thumbs/trev.jpg
n10332110_974 http://fryslagg.avatar.yuku.com/shoguntotalwar
n10332110_978 http://www.massmediahosting.com/ianmoss/wp-content/gallery/ian-moss/ian-moss-4.jpg
n10332110_980 http://img.perezhilton.com/wp-content/uploads/2010/08/deryckwhibleye__oPt.jpg
n10332110_982 http://www.trooper.org/2009%20Image%20Files/10-0%20Images/08%20August/22%20Ed%20Raholin.jpg
n10332110_1010 http://www.hotmommagossip.com/wp-content/uploads/2010/09/Justin-Bieber.jpg
n10332110_1015 http://media2.newsobserver.com/smedia/2010/06/21/16/ANTHONY_W_MOSS.thumb.prod_affiliate.156.jpg
n10332110_1058 http://www.racingandsports.com.au/photogallery/small/2008/TASC08_3409A.JPG
n10332110_1059 http://4.bp.blogspot.com/_FmvVm1RxDX4/SnxxEblcBSI/AAAAAAAAHrw/kO9sPcStYUo/s400/WA+SPD+Moss+arrested+for+assaulting+wife_2b.jpg
n10332110_1067 http://www.homeinhenderson.com/images/Chieffive.jpg
n10332110_1087 http://lindsayhorn.com/blog/wp-content/uploads/2010/04/Rachel-Moss_0307adj-web.jpg
n10332110_1098 http://www.cbsnews.com/i/tim//2010/07/07/kelly-moss-2_370x278.jpg
n10332110_1105 http://www.thehollywoodgossip.com/wp-content/uploads/2007/01/pete-doherty-1.jpg
n10332110_1118 http://img.youtube.com/vi/1wRVtpYr81U/2.jpg
n10332110_1125 http://mentalammo.com/blog/wp-content/uploads/2009/12/Trooper-Dalton.jpg
n10332110_1128 http://www.nationalpost.com/3396099.bin?size=620x465
n10332110_1225 http://www.virtualformguide.com/photos/070710/Race1-SandownSteeple-Morsonique-TrinderMichael-07072010-3312.jpg
n10332110_1231 http://userserve-ak.last.fm/serve/64s/3990750.jpg
n10332110_1240 http://lh5.ggpht.com/_CqUJgBa_Dn8/R0BHCAlszZI/AAAAAAAAAUM/30ImjqQIzyo/AtMossTrooper-02-Table.JPG
n10332110_1258 http://upload.wikimedia.org/wikipedia/commons/thumb/1/17/Blackhorse_trooper.jpg/250px-Blackhorse_trooper.jpg
n10332110_1268 http://web.mac.com/gjstoll/turbo/JMS_0474.jpg
n10332110_1271 http://media.idahostatesman.com/smedia/2010/08/11/15/0814Treasuretomscott.standalone.prod_affiliate.36.jpg
n10332110_1287 http://www.thestarphoenix.com/news/1367822.bin?size=620x400
n10332110_1305 http://www.kitmeout.com/img_assets/burberry-jumper.jpg
n10332110_1314 http://dontcostnothing.files.wordpress.com/2007/06/moss.jpg
n10332110_1320 http://tonicstudio.files.wordpress.com/2008/10/naomieddy_078.jpg
n10332110_1351 http://www.mindef.gov.bn/scholarship/components/com_joomgallery/img_thumbnails/2007_scholars_attachment_2/signing_ceremony_7/signing_ceremony_20080820_1057342956.jpg
n10332110_1355 http://www.thehotjoints.com/wp-content/uploads/2007/05/cummings.jpg
n10332110_1362 http://a1.twimg.com/profile_images/147185468/Photo_63_normal.jpg
n10332110_1366 http://www.glamourvanity.com/images/2009-victorias-secret-fashion-show-5.jpg
n10332110_1369 http://2.bp.blogspot.com/_0BZMJYPCtqU/RxIzU2fOLeI/AAAAAAAAAdo/MPI4ka5hXkQ/s400/Bob+Sinclar
n10332110_1371 http://www.adrants.com/images/kate_moss_nikon_nude.jpg
n10332110_1373 http://img176.imageshack.us/img176/4980/tprlawrence.jpg
n10332110_1378 http://gal.darkervision.com/wp-content/uploads/2008/06/111.jpg
n10332110_1382 http://ny.racked.com/uploads/2008_5_valkyriewin.jpg
n10332110_1384 http://nationalpostarts.files.wordpress.com/2010/07/cc2.jpg?w=620&amp;h;=465
n10332110_1390 http://img444.imageshack.us/img444/3669/katemoss1440x900do3.th.jpg
n10332110_1396 http://media2.newsobserver.com/smedia/2010/08/20/22/BUTNERCOP-082110_GHV1KC8K7.1+ANTHONY%20W%20MOSS%202.embedded.prod_affiliate.156.jpg
n10332110_1404 http://2.bp.blogspot.com/_kiPHvAIjxso/Swk4ICxG4zI/AAAAAAAAgww/OavRO-R8aqs/s1600/trentini+2009+nov+vs+show2.jpg
n10332110_1419 http://2.bp.blogspot.com/_dPyaASbe3xk/S5jzTZVqiYI/AAAAAAAAA8w/w2mlskNUBgw/s400/Moss%2Bat%2BTopshop%2BUnique%2BaMh2Tqb9_zJl.jpg
n10332110_1425 http://ai.eecs.umich.edu/people/conway/LynnPhotos/LynnByWindow-2.jpg
n10332110_1430 http://2.bp.blogspot.com/_49fMhPaQCPo/TF3LVTx907I/AAAAAAAAA18/PzAF3Y8BeCU/s1600/DSC_1118.JPG
n10332110_1433 http://img.perezhilton.com/wp-content/uploads/2009/01/dillonmug__opt1.jpg
n10332110_1436 http://jockweb.com/untitled.jpg
n10332110_1440 http://media.threadless.com/product/190x136/1256-view1.jpg
n10332110_1449 http://img.perezhilton.com/wp-content/uploads/2007/08/mx0077452__oPt.jpg
n10332110_1457 http://popbytes.com/img/kate-moss-dominatrix-1.jpg
n10332110_1462 http://www.startrip.tv/images/2007/08/21/sarahharding.jpg
n10332110_1473 http://www.rootschat.com/forum/index.php?action=dlattach;id=149473;type=avatar
n10332110_1489 http://images.teamsugar.com/files/users/0/88/10_2007/Mischa-NYC.jpg
n10332110_1498 http://media2.newsobserver.com/smedia/2010/05/13/21/TROOPER-051410.ART_G7C1BA7MP.1+WALTER%20B%20WILLIAMS.embedded.prod_affiliate.156.jpg
n10332110_1499 http://img.perezhilton.com/wp-content/uploads/2010/07/wenn2895660jb__oPt.jpg
n10332110_1501 http://3.bp.blogspot.com/_CXzZQTqA7i0/SSCDNJ3w5nI/AAAAAAAABqI/Y1B3Q313VSY/s400/axl.jpg
n10332110_1510 http://homepages.ihug.co.nz/~markcath/boopic.jpg
n10332110_1511 http://a.abcnews.com/images/US/abc_barbie_moss_071016_mn.jpg
n10332110_1514 http://beeradvocate.com/im/users/ngandhi.jpg
n10332110_1519 http://scifisizzle.com/imagegallery/images/dina_meyer/dina_meyer_1.jpg
n10332110_1525 http://behindblondiepark.com/wp-content/uploads/2009/12/tiger-woods.jpg
n10332110_1539 http://media.justjared.com/headlines/2009/11/katie-holmes-romantic-nightie.jpg
n10332110_1543 http://img401.imageshack.us/img401/4756/20090727adf8144078392lo.jpg
n10332110_1545 http://i.dailymail.co.uk/i/pix/2009/09/12/article-1213037-06669023000005DC-319_306x423_popup.jpg
n10332110_1547 http://3.bp.blogspot.com/_0mnj6CLsnPo/Sp-iZFOd2TI/AAAAAAAADnw/ZwAsUb_79qM/S220/thelms+pics+1035.jpg
n10332110_1571 http://i560.photobucket.com/albums/ss48/uncle-finster/Movies/Photo-1.jpg
n10332110_1583 http://i.cocoperez.com/wp-content/uploads/2009/11/alessandrawings__oPt.jpg
n10332110_1592 http://julianmichael.files.wordpress.com/2009/03/dennis-moss-blog-2up-xp-sm.jpg?w=500&amp;h;=375
n10332110_1600 http://mysite.freeserve.com/gert4blog/images/1-picture3.jpg
n10332110_1604 http://media2.newsobserver.com/smedia/2010/05/13/21/TROOPER-051410.ART_G7C1BA7MP.1+DANIEL%20C.%20PARROTT.embedded.prod_affiliate.156.jpg
n10332110_1611 http://farm3.static.flickr.com/2602/3939317548_e90d31dd98_s.jpg
n10332110_1613 http://userserve-ak.last.fm/serve/64s/306151.jpg
n10332110_1626 http://www.geocities.com/layedwyer/IMG9895.JPG
n10332110_1646 http://photos.upi.com/story/t/41ecb8bf219920c406a9487b22964fa2/Moss-files-for-divorce-from-Armisen.jpg
n10332110_1647 http://www.trooper.org/2009%20Image%20Files/10-0%20Images/09%20September/19%20Nash.jpg
n10332110_1671 http://i.dailymail.co.uk/i/pix/2010/09/22/article-1314099-0B4B601A000005DC-638_233x340.jpg
n10332110_1688 http://a1.twimg.com/profile_images/397438748/snow_on_dunraven_normal.jpg
n10332110_1694 http://beeradvocate.com/im/users/ralree.jpg
n10332110_1717 http://i.cocoperez.com/wp-content/uploads/2010/09/104033357_e__oPt.jpg
n10332110_1721 http://lindsayhorn.com/blog/wp-content/uploads/2010/04/Rachel-Moss-Wall-comp-web.jpg
n10332110_1722 http://www.ksl.com/emedia/slc/850/85024/8502414.jpg
n10332110_1723 http://static.flickr.com/4140/4743888762_dbdcdf670e.jpg
n10332110_1724 http://profile.ak.fbcdn.net/profile6/1987/108/t1212232240_5975.jpg
n10332110_1740 http://photos.upi.com/story/t/edc0ff2179fad367311b604b4e21e513/Mad-Men-wins-third-best-drama-Emmy.jpg
n10332110_1741 http://imgsrv.wbz.com/image/DbLiteGraphic/200907/4847518.jpg
n10332110_1742 http://i2.tinypic.com/qzow02.jpg
n10332110_1743 http://cdn.picapp.com/ftp/Images/e/e/1/b/British_Fashion_Awards_c034.jpg?adImageId=9554211&amp;imageId;=7350785
n10332110_1744 http://icelebz.com/celebs/jennifer_aniston/images/photo430.jpg
n10332110_1768 http://msnbcmedia.msn.com/j/msnbc/Components/Photos/050824/050824_olsen_vmed_1p.widec.jpg
n10332110_1783 http://kptm.images.worldnow.com/images/7893079_BG1.jpg
n10332110_1793 http://www.sexydressup.com/img/trooper.jpg
n10332110_1810 http://lh5.ggpht.com/_CqUJgBa_Dn8/R0BHFAlszfI/AAAAAAAAAU8/l2JeXQbT2Vg/AtMossTrooper-John,James.JPG
n10332110_1819 http://borderslibdems.org.uk/images/sites/84.234.17.197-45896de7da5537.48673820/thumbs/contacts/10.jpeg
n10332110_1826 http://i.dailymail.co.uk/i/pix/2008/09/05/article-0-02879F0E00000578-808_468x301.jpg
n10332110_1828 http://fewbroth.co.uk/images/gallery-thumbs/sarah.jpg
n10332110_1831 http://stylefrizz.com/img/kate-moss-agent-provocateur-bridal.jpg
n10332110_1837 http://www.memorial.to/vmg/images/00000659.gif
